2theta chi X Y I
78.417133   1.609124   1027.110000   1293.280000   70931.270
64.677225   -20.485665   1379.170000   1553.580000   51933.840
69.000232   -15.098264   1288.110000   1460.160000   22795.070
105.355024   8.033256   926.220000   872.060000   19489.690
103.672544   27.445539   595.460000   876.440000   19058.790
120.158287   -8.765196   1183.270000   598.920000   17182.880
60.711375   26.075978   626.120000   1661.280000   15825.390
56.717408   12.744626   856.140000   1702.520000   15486.200
82.162530   -35.407034   1672.670000   1258.620000   13318.810
83.440452   -27.040905   1497.400000   1224.700000   13145.990
91.765198   -8.164670   1176.090000   1086.190000   11799.930
82.083295   17.237676   780.270000   1242.530000   11662.160
81.735122   14.300057   828.680000   1246.060000   10727.930
121.868741   14.615976   819.910000   552.840000   10271.900
114.566609   11.330724   873.560000   706.970000   10010.520
54.987259   -2.104615   1085.800000   1725.830000   9107.770
109.231090   -31.224887   1579.390000   754.630000   8515.140
94.557514   -10.752991   1216.490000   1042.280000   8262.020
127.401311   -26.367185   1481.200000   364.840000   6598.440
80.619652   36.720952   399.870000   1297.190000   6505.450
81.877532   29.937256   548.250000   1260.320000   6137.870
83.612140   -21.565968   1396.710000   1217.560000   5781.180
92.157918   -30.884959   1573.490000   1073.130000   5481.590
72.799947   -9.548442   1199.060000   1387.530000   5182.440
120.441564   -19.189064   1352.760000   568.030000   5055.990
97.168604   33.700353   467.050000   984.600000   4950.230
82.302087   25.272120   638.870000   1246.590000   4761.410
96.141565   5.436295   967.150000   1019.900000   4673.940
93.525150   4.776319   977.500000   1060.310000   4649.480
99.992254   21.673104   702.520000   949.880000   4413.680
108.258993   37.254990   383.770000   754.580000   4400.610
98.559574   -14.933023   1283.340000   976.690000   4305.200
132.297489   21.193557   707.200000   261.110000   4170.570
112.546253   -5.995194   1140.930000   748.400000   4160.120
64.728125   21.945575   701.050000   1560.170000   4044.720
92.453289   -37.867962   1730.330000   1063.320000   3856.170
109.269375   9.328950   905.640000   804.810000   3693.430
118.714260   -0.433585   1055.140000   634.640000   3277.590
108.495459   21.575927   703.420000   801.020000   3232.590
98.426599   41.006597   289.690000   945.970000   3125.110
89.848643   -6.541760   1151.050000   1115.850000   3088.730
101.402674   -18.299936   1339.110000   926.870000   2830.160
119.878009   -25.136034   1458.760000   556.690000   2775.350
81.383345   12.264712   861.480000   1250.420000   2670.740
79.828254   39.641497   327.890000   1321.030000   2634.420
112.462190   26.034862   621.540000   713.500000   2612.620
131.695485   -14.589566   1274.860000   306.950000   2377.760
114.970561   -14.834606   1280.510000   691.440000   2278.070
125.140619   -1.006955   1063.250000   497.790000   2195.880
74.717189   -28.206629   1520.650000   1382.650000   2124.740
97.666759   -39.308265   1765.960000   958.470000   2077.070
110.763211   -34.974400   1660.860000   706.310000   2052.310
103.262241   -3.373735   1101.370000   907.290000   1952.150
59.273594   -1.481594   1075.860000   1633.060000   1878.930
91.391384   -25.823953   1473.720000   1088.400000   1877.760
80.478049   -41.310361   1819.620000   1305.460000   1746.380
97.000534   -33.408729   1626.900000   982.640000   1676.950
95.701196   28.471233   576.200000   1016.970000   1646.400
82.323478   21.821617   701.500000   1242.550000   1591.710
104.900830   -23.323669   1426.670000   858.780000   1576.400
64.422497   9.203242   911.320000   1538.140000   1466.190
119.173122   13.307186   841.450000   613.020000   1399.400
125.274520   -11.079611   1219.190000   482.300000   1361.220
124.538990   -31.727052   1588.650000   403.050000   1343.440
65.844455   31.305219   521.920000   1574.920000   1331.830
94.794494   15.338079   810.650000   1039.110000   1277.200
134.068359   4.222077   982.110000   264.380000   1253.580
121.443339   30.253049   537.370000   496.910000   1183.420
93.139362   36.917984   393.710000   1057.160000   1105.270
93.248778   42.641475   245.420000   1050.380000   1055.910
113.774950   -0.068365   1050.010000   728.620000   1019.630
116.420594   40.638968   296.950000   544.570000   943.570
105.885042   31.655112   510.170000   824.170000   887.260
83.172683   -15.026828   1285.920000   1221.220000   860.610
100.288080   -2.621493   1090.080000   954.930000   797.370
111.503093   -37.138084   1711.330000   678.470000   772.050
115.841275   -20.573099   1377.040000   659.840000   708.970
126.580860   17.288837   775.110000   434.930000   706.880
105.268634   18.449278   757.840000   863.720000   703.030
91.574092   4.369743   983.890000   1090.230000   655.210
133.993162   7.887089   925.430000   261.100000   646.940
96.362911   -12.497440   1244.110000   1013.220000   550.970
119.242819   -28.887044   1530.970000   552.130000   492.940
# File created at Tue Feb 11 13:03:58 2020 with readwriteASCII.py
# From: Ge0001.dat
# Calibration parameters
# dd     :   69.179
# xcen     :   1050.81
# ycen     :   1115.59
# xbet     :   0.104
# xgam     :   -0.273
# pixelsize     :   0.079142
# ypixelsize     :   0.079142